# Date: Tue Sep 3 22:01:34 2024
# LED: 1
#Wavelength	#Inital reflectance [%]	#Final reflectance [%]
91.0096	0	0
91.2522	0	0
91.4948	0	0
91.7374	0	0
91.98	0	0
92.2226	0	0
92.4651	0	0
92.7076	0	0
92.9501	0	0
93.1925	0	0
93.4349	0	0
93.6773	0	0
93.9197	0	0
94.1621	0	0
94.4044	0	0
94.6467	0	0
94.889	0	0
95.1312	0	0
95.3734	0	0
95.6156	0	0
95.8578	0	0
96.0999	0	0
96.3421	0	0
96.5842	0	0
96.8262	0	0
97.0683	0	0
97.3103	0	0
97.5523	0	0
97.7943	0	0
98.0362	0	0
98.2782	0	0
98.5201	0	0
98.7619	0	0
99.0038	0	0
99.2456	0	0
99.4874	0	0
99.7292	0	0
99.9709	0	0
100.213	0	0
100.454	0	0
100.696	0	0
100.938	0	0
101.179	0	0
101.421	0	0
101.662	0	0
101.904	0	0
102.146	0	0
102.387	0	0
102.629	0	0
102.87	0	0
103.111	0	0
103.353	0	0
103.594	0	0
103.835	0	0
104.077	0	0
104.318	0	0
104.559	0	0
104.801	0	0
105.042	0	0
105.283	0	0
105.524	0	0
105.765	0	0
106.006	0	0
106.248	0	0
106.489	0	0
106.73	0	0
106.971	0	0
107.212	0	0
107.453	0	0
107.694	0	0
107.935	0	0
108.175	0	0
108.416	0	0
108.657	0	0
108.898	0	0
109.139	0	0
109.38	0	0
109.62	0	0
109.861	0	0
110.102	0	0
110.342	0	0
110.583	0	0
110.824	0	0
111.064	0	0
111.305	0	0
111.545	0	0
111.786	0	0
112.026	0	0
112.267	0	0
112.507	0	0
112.748	0	0
112.988	0	0
113.228	0	0
113.469	0	0
113.709	0	0
113.949	0	0
114.19	0	0
114.43	0	0
114.67	0	0
114.91	0	0
115.151	0	0
115.391	0	0
115.631	0	0
115.871	0	0
116.111	0	0
116.351	0	0
116.591	0	0
116.831	0	0
117.071	0	0
117.311	0	0
117.551	0	0
117.791	0	0
118.031	0	0
118.27	0	0
118.51	0	0
118.75	0	0
118.99	0	0
119.23	0	0
119.469	0	0
119.709	0	0
119.949	0	0
120.188	0	0
120.428	0	0
120.667	0	0
120.907	0	0
121.147	0	0
121.386	0	0
121.626	0	0
121.865	0	0
122.104	0	0
122.344	0	0
122.583	0	0
122.823	0	0
123.062	0	0
123.301	0	0
123.541	0	0
123.78	0	0
124.019	0	0
124.258	0	0
124.498	0	0
124.737	0	0
124.976	0	0
125.215	0	0
125.454	0	0
125.693	0	0
125.932	0	0
126.171	0	0
126.41	0	0
126.649	0	0
126.888	0	0
127.127	0	0
127.366	0	0
127.605	0	0
127.844	0	0
128.082	0	0
128.321	0	0
128.56	0	0
128.799	0	0
129.037	0	0
129.276	0	0
129.515	0	0
129.753	0	0
129.992	0	0
130.231	0	0
130.469	0	0
130.708	0	0
130.946	0	0
131.185	0	0
131.423	0	0
131.662	0	0
131.9	0	0
132.138	0	0
132.377	0	0
132.615	0	0
132.853	0	0
133.092	0	0
133.33	0	0
133.568	0	0
133.806	0	0
134.045	0	0
134.283	0	0
134.521	0	0
134.759	0	0
134.997	0	0
135.235	0	0
135.473	0	0
135.711	0	0
135.949	0	0
136.187	0	0
136.425	0	0
136.663	0	0
136.901	0	0
137.139	0	0
137.377	0	0
137.614	0	0
137.852	0	0
138.09	0	0
138.328	0	0
138.565	0	0
138.803	0	0
139.041	0	0
139.278	0	0
139.516	0	0
139.754	0	0
139.991	0	0
140.229	0	0
140.466	0	0
140.704	0	0
140.941	0	0
141.179	0	0
141.416	0	0
141.653	0	0
141.891	0	0
142.128	0	0
142.365	0	0
142.603	0	0
142.84	0	0
143.077	0	0
143.314	0	0
143.552	0	0
143.789	0	0
144.026	0	0
144.263	0	0
144.5	0	0
144.737	0	0
144.974	0	0
145.211	0	0
145.448	0	0
145.685	0	0
145.922	0	0
146.159	0	0
146.396	0	0
146.633	0	0
146.869	0	0
147.106	0	0
147.343	0	0
147.58	0	0
147.817	0	0
148.053	0	0
148.29	0	0
148.527	0	0
148.763	0	0
149	0	0
149.236	0	0
149.473	0	0
149.71	0	0
149.946	0	0
150.182	0	0
150.419	0	0
150.655	0	0
150.892	0	0
151.128	0	0
151.365	0	0
151.601	0	0
151.837	0	0
152.073	0	0
152.31	0	0
152.546	0	0
152.782	0	0
153.018	0	0
153.254	0	0
153.491	0	0
153.727	0	0
153.963	0	0
154.199	0	0
154.435	0	0
154.671	0	0
154.907	0	0
155.143	0	0
155.379	0	0
155.615	0	0
155.851	0	0
156.086	0	0
156.322	0	0
156.558	0	0
156.794	0	0
157.03	0	0
157.265	0	0
157.501	0	0
157.737	0	0
157.972	0	0
158.208	0	0
158.444	0	0
158.679	0	0
158.915	0	0
159.15	0	0
159.386	0	0
159.621	0	0
159.857	0	0
160.092	0	0
160.328	0	0
160.563	0	0
160.798	0	0
161.034	0	0
161.269	0	0
161.504	0	0
161.739	0	0
161.975	0	0
162.21	0	0
162.445	0	0
162.68	0	0
162.915	0	0
163.15	0	0
163.385	0	0
163.621	0	0
163.856	0	0
164.091	0	0
164.326	0	0
164.561	0	0
164.795	0	0
165.03	0	0
165.265	0	0
165.5	0	0
165.735	0	0
165.97	0	0
166.204	0	0
166.439	0	0
166.674	0	0
166.909	0	0
167.143	0	0
167.378	0	0
167.613	0	0
167.847	0	0
168.082	0	0
168.316	0	0
168.551	0	0
168.785	0	0
169.02	0	0
169.254	0	0
169.489	0	0
169.723	0	0
169.958	0	0
170.192	0	0
170.426	0	0
170.66	0	0
170.895	0	0
171.129	0	0
171.363	0	0
171.597	0	0
171.832	0	0
172.066	0	0
172.3	0	0
172.534	0	0
172.768	0	0
173.002	0	0
173.236	0	0
173.47	0	0
173.704	0	0
173.938	0	0
174.172	0	0
174.406	0	0
174.64	0	0
174.874	0	0
175.107	0	0
175.341	0	0
175.575	0	0
175.809	0	0
176.042	0	0
176.276	0	0
176.51	0	0
176.743	0	0
176.977	0	0
177.211	0	0
177.444	0	0
177.678	0	0
177.911	0	0
178.145	0	0
178.378	0	0
178.612	0	0
178.845	0	0
179.079	0	0
179.312	0	0
179.545	0	0
179.779	0	0
180.012	0	0
180.245	0	0
180.478	0	0
180.712	0	0
180.945	0	0
181.178	0	0
181.411	0	0
181.644	0	0
181.877	0	0
182.111	0	0
182.344	0	0
182.577	0	0
182.81	0	0
183.043	0	0
183.275	0	0
183.508	0	0
183.741	0	0
183.974	0	0
184.207	0	0
184.44	0	0
184.673	0	0
184.905	0	0
185.138	0	0
185.371	0	0
185.604	0	0
185.836	0	0
186.069	0	0
186.302	0	0
186.534	0	0
186.767	0	0
186.999	0	0
187.232	0	0
187.464	0	0
187.697	0	0
187.929	0	0
188.162	0	0
188.394	0	0
188.626	0	0
188.859	0	0
189.091	0	0
189.323	0	0
189.556	0	0
189.788	0	0
190.02	0	0
190.252	0	0
190.484	0	0
190.717	0	0
190.949	0	0
191.181	0	0
191.413	0	0
191.645	0	0
191.877	0	0
192.109	0	0
192.341	0	0
192.573	0	0
192.805	0	0
193.037	0	0
193.268	0	0
193.5	0	0
193.732	0	0
193.964	0	0
194.196	0	0
194.427	0	0
194.659	0	0
194.891	0	0
195.123	0	0
195.354	0	0
195.586	0	0
195.817	0	0
196.049	0	0
196.281	0	0
196.512	0	0
196.744	0	0
196.975	0	0
197.206	0	0
197.438	0	0
197.669	0	0
197.901	0	0
198.132	0	0
198.363	0	0
198.595	0	0
198.826	0	0
199.057	0	0
199.288	0	0
199.519	0	0
199.751	0	0
199.982	0	0
200.213	0	0
200.444	0	0
200.675	0	0
200.906	0	0
201.137	0	0
201.368	0	0
201.599	0	0
201.83	0	0
202.061	0	0
202.292	0	0
202.523	0	0
202.754	0	0
202.984	0	0
203.215	0	0
203.446	0	0
203.677	0	0
203.907	0	0
204.138	0	0
204.369	0	0
204.599	0	0
204.83	0	0
205.061	0	0
205.291	0	0
205.522	0	0
205.752	0	0
205.983	0	0
206.213	0	0
206.444	0	0
206.674	0	0
206.904	0	0
207.135	0	0
207.365	0	0
207.595	0	0
207.826	0	0
208.056	0	0
208.286	0	0
208.516	0	0
208.747	0	0
208.977	0	0
209.207	0	0
209.437	0	0
209.667	0	0
209.897	0	0
210.127	0	0
210.357	0	0
210.587	0	0
210.817	0	0
211.047	0	0
211.277	0	0
211.507	0	0
211.737	0	0
211.967	0	0
212.196	0	0
212.426	0	0
212.656	0	0
212.886	0	0
213.115	0	0
213.345	0	0
213.575	0	0
213.804	0	0
214.034	0	0
214.264	0	0
214.493	0	0
214.723	0	0
214.952	0	0
215.182	0	0
215.411	0	0
215.641	0	0
215.87	0	0
216.099	0	0
216.329	0	0
216.558	0	0
216.787	0	0
217.017	0	0
217.246	0	0
217.475	0	0
217.704	0	0
217.934	0	0
218.163	0	0
218.392	0	0
218.621	0	0
218.85	0	0
219.079	0	0
219.308	0	0
219.537	0	0
219.766	0	0
219.995	0	0
220.224	0	0
220.453	0	0
220.682	0	0
220.911	0	0
221.14	0	0
221.368	0	0
221.597	0	0
221.826	0	0
222.055	0	0
222.283	0	0
222.512	0	0
222.741	0	0
222.969	0	0
223.198	0	0
223.426	0	0
223.655	0	0
223.884	0	0
224.112	0	0
224.341	0	0
224.569	0	0
224.797	0	0
225.026	0	0
225.254	0	0
225.483	0	0
225.711	0	0
225.939	0	0
226.168	0	0
226.396	0	0
226.624	0	0
226.852	0	0
227.08	0	0
227.309	0	0
227.537	0	0
227.765	0	0
227.993	0	0
228.221	0	0
228.449	0	0
228.677	0	0
228.905	0	0
229.133	0	0
229.361	0	0
229.589	0	0
229.817	0	0
230.045	0	0
230.272	0	0
230.5	0	0
230.728	0	0
230.956	0	0
231.183	0	0
231.411	0	0
231.639	0	0
231.866	0	0
232.094	0	0
232.322	0	0
232.549	0	0
232.777	0	0
233.004	0	0
233.232	0	0
233.459	0	0
233.687	0	0
233.914	0	0
234.142	0	0
234.369	0	0
234.596	0	0
234.824	0	0
235.051	0	0
235.278	0	0
235.506	0	0
235.733	0	0
235.96	0	0
236.187	0	0
236.414	0	0
236.641	0	0
236.869	0	0
237.096	0	0
237.323	0	0
237.55	0	0
237.777	0	0
238.004	0	0
238.231	0	0
238.458	0	0
238.685	0	0
238.911	0	0
239.138	0	0
239.365	0	0
239.592	0	0
239.819	0	0
240.045	0	0
240.272	0	0
240.499	0	0
240.726	0	0
240.952	0	0
241.179	0	0
241.405	0	0
241.632	0	0
241.859	0	0
242.085	0	0
242.312	0	0
242.538	0	0
242.764	0	0
242.991	0	0
243.217	0	0
243.444	0	0
243.67	0	0
243.896	0	0
244.123	0	0
244.349	0	0
244.575	0	0
244.801	0	0
245.028	0	0
245.254	0	0
245.48	0	0
245.706	0	0
245.932	0	0
246.158	0	0
246.384	0	0
246.61	0	0
246.836	0	0
247.062	0	0
247.288	0	0
247.514	0	0
247.74	0	0
247.966	0	0
248.192	0	0
248.418	0	0
248.643	0	0
248.869	0	0
249.095	0	0
249.321	0	0
249.546	0	0
249.772	0	0
249.998	0	0
250.223	0	0
250.449	0	0
250.675	0	0
250.9	0	0
251.126	0	0
251.351	0	0
251.577	0	0
251.802	0	0
252.027	0	0
252.253	0	0
252.478	0	0
252.704	0	0
252.929	0	0
253.154	0	0
253.379	0	0
253.605	0	0
253.83	0	0
254.055	0	0
254.28	0	0
254.505	0	0
254.731	0	0
254.956	0	0
255.181	0	0
255.406	0	0
255.631	0	0
255.856	0	0
256.081	0	0
256.306	0	0
256.531	0	0
256.756	0	0
256.98	0	0
257.205	0	0
257.43	0	0
257.655	0	0
257.88	0	0
258.104	0	0
258.329	0	0
258.554	0	0
258.779	0	0
259.003	0	0
259.228	0	0
259.452	0	0
259.677	0	0
259.902	0	0
260.126	0	0
260.351	0	0
260.575	0	0
260.799	0	0
261.024	0	0
261.248	0	0
261.473	0	0
261.697	0	0
261.921	0	0
262.146	0	0
262.37	0	0
262.594	0	0
262.818	0	0
263.043	0	0
263.267	0	0
263.491	0	0
263.715	0	0
263.939	0	0
264.163	0	0
264.387	0	0
264.611	0	0
264.835	0	0
265.059	0	0
265.283	0	0
265.507	0	0
265.731	0	0
265.955	0	0
266.179	0	0
266.402	0	0
266.626	0	0
266.85	0	0
267.074	0	0
267.298	0	0
267.521	0	0
267.745	0	0
267.969	0	0
268.192	0	0
268.416	0	0
268.639	0	0
268.863	0	0
269.086	0	0
269.31	0	0
269.533	0	0
269.757	0	0
269.98	0	0
270.204	0	0
270.427	0	0
270.65	0	0
270.874	0	0
271.097	0	0
271.32	0	0
271.543	0	0
271.767	0	0
271.99	0	0
272.213	0	0
272.436	0	0
272.659	0	0
272.882	0	0
273.105	0	0
273.328	0	0
273.551	0	0
273.774	0	0
273.997	0	0
274.22	0	0
274.443	0	0
274.666	0	0
274.889	0	0
275.112	0	0
275.335	0	0
275.557	0	0
275.78	0	0
276.003	0	0
276.226	0	0
276.448	0	0
276.671	0	0
276.894	0	0
277.116	0	0
277.339	0	0
277.561	0	0
277.784	0	0
278.007	0	0
278.229	0	0
278.452	0	0
278.674	0	0
278.896	0	0
279.119	0	0
279.341	0	0
279.563	0	0
279.786	0	0
280.008	0	0
280.23	0	0
280.453	0	0
280.675	0	0
280.897	0	0
281.119	0	0
281.341	0	0
281.563	0	0
281.785	0	0
282.008	0	0
282.23	0	0
282.452	0	0
282.674	0	0
282.896	0	0
283.117	0	0
283.339	0	0
283.561	0	0
283.783	0	0
284.005	0	0
284.227	0	0
284.449	0	0
284.67	0	0
284.892	0	0
285.114	0	0
285.336	0	0
285.557	0	0
285.779	0	0
286	0	0
286.222	0	0
286.444	0	0
286.665	0	0
286.887	0	0
287.108	0	0
287.33	0	0
287.551	0	0
287.772	0	0
287.994	0	0
288.215	0	0
288.437	0	0
288.658	0	0
288.879	0	0
289.1	0	0
289.322	0	0
289.543	0	0
289.764	0	0
289.985	0	0
290.206	0	0
290.427	0	0
290.649	0	0
290.87	0	0
291.091	0	0
291.312	0	0
291.533	0	0
291.754	0	0
291.974	0	0
292.195	0	0
292.416	0	0
292.637	0	0
292.858	0	0
293.079	0	0
293.3	0	0
293.52	0	0
293.741	0	0
293.962	0	0
294.182	0	0
294.403	0	0
294.624	0	0
294.844	0	0
295.065	0	0
295.286	0	0
295.506	0	0
295.727	0	0
295.947	0	0
296.168	0	0
296.388	0	0
296.608	0	0
296.829	0	0
297.049	0	0
297.269	0	0
297.49	0	0
297.71	0	0
297.93	0	0
298.151	0	0
298.371	0	0
298.591	0	0
298.811	0	0
299.031	0	0
299.251	0	0
299.471	0	0
299.691	0	0
299.911	0	0
300.132	0	0
300.352	0	0
300.571	0	0
300.791	0	0
301.011	0	0
301.231	0	0
301.451	0	0
301.671	0	0
301.891	0	0
302.11	0	0
302.33	0	0
302.55	0	0
302.77	0	0
302.989	0	0
303.209	0	0
303.429	0	0
303.648	0	0
303.868	0	0
304.087	0	0
304.307	0	0
304.526	0	0
304.746	0	0
304.965	0	0
305.185	0	0
305.404	0	0
305.624	0	0
305.843	0	0
306.062	0	0
306.282	0	0
306.501	0	0
306.72	0	0
306.939	0	0
307.159	0	0
307.378	0	0
307.597	0	0
307.816	0	0
308.035	0	0
308.254	0	0
308.473	0	0
308.692	0	0
308.911	0	0
309.13	0	0
309.349	0	0
309.568	0	0
309.787	0	0
310.006	0	0
310.225	0	0
310.444	0	0
310.662	0	0
310.881	0	0
311.1	0	0
311.319	0	0
311.537	0	0
311.756	0	0
311.975	0	0
312.193	0	0
312.412	0	0
312.631	0	0
312.849	0	0
313.068	0	0
313.286	0	0
313.505	0	0
313.723	0	0
313.941	0	0
314.16	0	0
314.378	0	0
314.597	0	0
314.815	0	0
315.033	0	0
315.252	0	0
315.47	0	0
315.688	0	0
315.906	0	0
316.124	0	0
316.343	0	0
316.561	0	0
316.779	0	0
316.997	0	0
317.215	0	0
317.433	0	0
317.651	0	0
317.869	0	0
318.087	0	0
318.305	0	0
318.523	0	0
318.741	0	0
318.958	0	0
319.176	0	0
319.394	0	0
319.612	0	0
319.83	0	0
320.047	0	0
320.265	0	0
320.483	0	0
320.7	0	0
320.918	0	0
321.136	0	0
321.353	0	0
321.571	0	0
321.788	0	0
322.006	0	0
322.223	0	0
322.441	0	0
322.658	0	0
322.875	0	0
323.093	0	0
323.31	0	0
323.528	0	0
323.745	0	0
323.962	0	0
324.179	0	0
324.397	0	0
324.614	0	0
324.831	0	0
325.048	0	0
325.265	0	0
325.482	0	0
325.699	0	0
325.916	0	0
326.133	0	0
326.35	0	0
326.567	0	0
326.784	0	0
327.001	0	0
327.218	0	0
327.435	0	0
327.652	0	0
327.869	0	0
328.086	0	0
328.302	0	0
328.519	0	0
328.736	0	0
328.953	0	0
329.169	0	0
329.386	0	0
329.602	0	0
329.819	0	0
330.036	0	0
330.252	0	0
330.469	0	0
330.685	0	0
330.902	0	0
331.118	0	0
331.335	0	0
331.551	0	0
331.767	0	0
331.984	0	0
332.2	0	0
332.416	0	0
332.633	0	0
332.849	0	0
333.065	0	0
333.281	0	0
333.497	0	0
333.714	0	0
333.93	0	0
334.146	0	0
334.362	0	0
334.578	0	0
334.794	0	0
335.01	0	0
335.226	0	0
335.442	0	0
335.658	0	0
335.874	0	0
336.09	0	0
336.305	0	0
336.521	0	0
336.737	0	0
336.953	0	0
337.168	0	0
337.384	0	0
337.6	0	0
337.816	0	0
338.031	0	0
338.247	0	0
338.462	0	0
338.678	0	0
338.894	0	0
339.109	0	0
339.325	0	0
339.54	0	0
339.755	0	0
339.971	0	0
340.186	0	0
340.402	0	0
340.617	0	0
340.832	0	0
341.048	0	0
341.263	0	0
341.478	0	0
341.693	0	0
341.909	0	0
342.124	0	0
342.339	0	0
342.554	0	0
342.769	0	0
342.984	0	0
343.199	0	0
343.414	0	0
343.629	0	0
343.844	0	0
344.059	0	0
344.274	0	0
344.489	0	0
344.704	0	0
344.919	0	0
345.133	0	0
345.348	0	0
345.563	0	0
345.778	0	0
345.992	0	0
346.207	0	0
346.422	0	0
346.636	0	0
346.851	0	0
347.066	0	0
347.28	0	0
347.495	0	0
347.709	0	0
347.924	0	0
348.138	0	0
348.353	0	0
348.567	0	0
348.782	0	0
348.996	0	0
349.21	0	0
349.425	0	0
349.639	0	0
349.853	0	0
350.067	0	0
350.282	0	0
350.496	0	0
350.71	0	0
350.924	0	0
351.138	0	0
351.352	0	0
351.566	0	0
351.78	0	0
351.994	0	0
352.208	0	0
352.422	0	0
352.636	0	0
352.85	0	0
353.064	0	0
353.278	0	0
353.492	0	0
353.706	0	0
353.919	0	0
354.133	0	0
354.347	0	0
354.561	0	0
354.774	0	0
354.988	0	0
355.202	0	0
355.415	0	0
355.629	0	0
355.842	0	0
356.056	0	0
356.269	0	0
356.483	0	0
356.696	0	0
356.91	0	0
357.123	0	0
357.337	0	0
357.55	0	0
357.763	0	0
357.977	0	0
358.19	0	0
358.403	0	0
358.616	0	0
358.83	0	0
359.043	0	0
359.256	0	0
359.469	0	0
359.682	0	0
359.895	0	0
360.108	0	0
360.321	0	0
360.534	0	0
360.747	0	0
360.96	0	0
361.173	0	0
361.386	0	0
361.599	0	0
361.812	0	0
362.025	0	0
362.238	0	0
362.45	0	0
362.663	0	0
362.876	0	0
363.089	0	0
363.301	0	0
363.514	0	0
363.727	0	0
363.939	0	0
364.152	0	0
364.364	0	0
364.577	0	0
364.789	0	0
365.002	0	0
365.214	0	0
365.427	0	0
365.639	0	0
365.852	0	0
366.064	0	0
366.276	0	0
366.489	0	0
366.701	0	0
366.913	0	0
367.125	0	0
367.338	0	0
367.55	0	0
367.762	0	0
367.974	0	0
368.186	0	0
368.398	0	0
368.61	0	0
368.822	0	0
369.034	0	0
369.246	0	0
369.458	0	0
369.67	0	0
369.882	0	0
370.094	0	0
370.306	0	0
370.518	0	0
370.73	0	0
370.941	0	0
371.153	0	0
371.365	0	0
371.577	0	0
371.788	0	0
372	0	0
372.212	0	0
372.423	0	0
372.635	0	0
372.846	0	0
373.058	0	0
373.269	0	0
373.481	0	0
373.692	0	0
373.904	0	0
374.115	0	0
374.327	0	0
374.538	0	0
374.749	0	0
374.961	0	0
375.172	0	0
375.383	0	0
375.594	0	0
375.805	0	0
376.017	0	0
376.228	0	0
376.439	0	0
376.65	0	0
376.861	0	0
377.072	0	0
377.283	0	0
377.494	0	0
377.705	0	0
377.916	0	0
378.127	0	0
378.338	0	0
378.549	0	0
378.76	0	0
378.971	0	0
379.181	0	0
379.392	0	0
379.603	0	0
379.814	0	0
380.024	0	0
380.235	0	0
380.446	0	0
380.656	0	0
380.867	0	0
381.078	0	0
381.288	0	0
381.499	0	0
381.709	0	0
381.92	0	0
382.13	0	0
382.34	0	0
382.551	0	0
382.761	0	0
382.972	0	0
383.182	0	0
383.392	0	0
383.603	0	0
383.813	0	0
384.023	0	0
384.233	0	0
384.443	0	0
384.654	0	0
384.864	0	0
385.074	0	0
385.284	0	0
385.494	0	0
385.704	0	0
385.914	0	0
386.124	0	0
386.334	0	0
386.544	0	0
386.754	0	0
386.964	0	0
387.173	0	0
387.383	0	0
387.593	0	0
387.803	0	0
388.013	0	0
388.222	0	0
388.432	0	0
388.642	0	0
388.851	0	0
389.061	0	0
389.271	0	0
389.48	0	0
389.69	0	0
389.899	0	0
390.109	0	0
390.318	0	0
390.528	0	0
390.737	0	0
390.947	0	0
391.156	0	0
391.365	0	0
391.575	0	0
391.784	0	0
391.993	0	0
392.202	0	0
392.412	0	0
392.621	0	0
392.83	0	0
393.039	0	0
393.248	0	0
393.457	0	0
393.666	0	0
393.876	0	0
394.085	0	0
394.294	0	0
394.503	0	0
394.711	0	0
394.92	0	0
395.129	0	0
395.338	0	0
395.547	0	0
395.756	0	0
395.965	0	0
396.173	0	0
396.382	0	0
396.591	0	0
396.8	0	0
397.008	0	0
397.217	0	0
397.426	0	0
397.634	0	0
397.843	0	0
398.051	0	0
398.26	0	0
398.468	0	0
398.677	0	0
398.885	0	0
399.094	0	0
399.302	0	0
399.51	0	0
399.719	0	0
399.927	0	0
400.135	0	0
400.344	0	0
400.552	0	0
400.76	0	0
400.968	0	0
401.176	0	0
401.385	0	0
401.593	0	0
401.801	0	0
402.009	0	0
402.217	0	0
402.425	0	0
402.633	0	0
402.841	0	0
403.049	0	0
403.257	0	0
403.465	0	0
403.673	0	0
403.88	0	0
404.088	0	0
404.296	0	0
404.504	0	0
404.712	0	0
404.919	0	0
405.127	0	0
405.335	0	0
405.542	0	0
405.75	0	0
405.958	0	0
406.165	0	0
406.373	0	0
406.58	0	0
406.788	0	0
406.995	0	0
407.203	0	0
407.41	0	0
407.617	0	0
407.825	0	0
408.032	0	0
408.239	0	0
408.447	0	0
408.654	0	0
408.861	0	0
409.068	0	0
409.276	0	0
409.483	0	0
409.69	0	0
409.897	25.5961	27.9529
410.104	26.3732	27.7442
410.311	26.0616	27.3792
410.518	26.0016	27.5682
410.725	25.6737	27.1805
410.932	26.7927	27.7797
411.139	25.6484	26.2436
411.346	25.9097	27.2519
411.553	25.1838	26.5234
411.76	25.2978	27.0146
411.967	24.951	25.9198
412.174	24.3196	25.8398
412.381	24.6095	26.1912
412.587	24.9816	26.4068
412.794	24.8239	26.2738
413.001	24.7795	26.1547
413.208	24.4846	25.383
413.414	23.9339	25.6662
413.621	23.8064	24.6901
413.828	23.6395	25.4511
414.034	23.5748	25.3352
414.241	23.9632	25.1557
414.447	23.5738	25.1866
414.654	23.8623	25.3714
414.86	23.7197	24.681
415.067	23.3792	24.2547
415.273	23.4688	24.1866
415.48	23.6785	24.5191
415.686	23.3837	24.8215
415.893	23.531	24.5774
416.099	23.3825	24.5764
416.305	23.3275	24.5899
416.512	23.5242	24.4389
416.718	23.3663	24.5274
416.924	23.0806	24.2495
417.131	23.4058	24.1415
417.337	23.1594	23.9868
417.543	23.2104	24.2498
417.749	23.082	24.2208
417.955	23.3954	24.2322
418.161	23.1168	23.9519
418.367	22.8832	23.9113
418.574	22.9889	23.656
418.78	22.8702	23.8542
418.986	22.8189	23.8938
419.192	22.7495	23.7523
419.398	22.8024	23.5104
419.604	22.9896	23.8874
419.809	22.5434	23.6741
420.015	22.8177	23.4703
420.221	22.6143	23.2999
420.427	23.0095	23.7097
420.633	22.9943	23.5746
420.839	22.521	23.3895
421.044	22.7228	23.3737
421.25	22.7367	23.2764
421.456	22.6457	23.5125
421.662	22.6565	23.4958
421.867	22.8265	23.2933
422.073	22.6226	23.4009
422.278	22.5297	23.314
422.484	22.4485	23.0596
422.69	22.8078	23.3285
422.895	22.6912	23.2533
423.101	22.727	23.3295
423.306	22.5827	23.3411
423.512	22.6073	23.1801
423.717	22.7403	23.2406
423.922	22.5594	23.1916
424.128	22.6261	23.2834
424.333	22.8784	23.3176
424.539	22.7488	23.3033
424.744	22.6996	23.3419
424.949	22.5815	23.1795
425.154	22.6308	23.2628
425.36	22.6916	23.2986
425.565	22.585	23.0827
425.77	22.6511	23.201
425.975	22.5294	23.1606
426.18	22.7603	23.2511
426.385	22.6413	23.1943
426.591	22.7158	23.0942
426.796	22.5848	23.1843
427.001	22.7704	23.2161
427.206	22.7693	23.3832
427.411	22.639	23.163
427.616	22.6846	23.1524
427.821	22.7067	23.3101
428.026	22.6718	23.2152
428.23	22.7124	23.2416
428.435	22.7608	23.2173
428.64	22.6687	23.2248
428.845	22.5919	23.197
429.05	22.7213	23.3183
429.254	22.6773	23.18
429.459	22.7681	23.2995
429.664	22.7149	23.2743
429.869	22.6732	23.3409
430.073	22.7512	23.22
430.278	22.7912	23.265
430.483	22.7066	23.2394
430.687	22.8011	23.1516
430.892	22.8046	23.3557
431.096	22.8155	23.2921
431.301	22.7862	23.2922
431.505	22.828	23.3026
431.71	22.7681	23.2007
431.914	22.8038	23.3582
432.118	22.7641	23.2588
432.323	22.8581	23.3293
432.527	22.7809	23.2492
432.732	22.9058	23.3162
432.936	22.8781	23.2839
433.14	22.914	23.2465
433.344	22.8673	23.2461
433.549	22.9293	23.3511
433.753	22.9536	23.3356
433.957	22.936	23.3173
434.161	22.9252	23.3097
434.365	22.9681	23.3567
434.57	23.0127	23.3715
434.774	22.998	23.3444
434.978	22.9978	23.4266
435.182	23.0225	23.3684
435.386	23.0127	23.3619
435.59	23.0645	23.4443
435.794	23.0816	23.4663
435.998	23.0911	23.4445
436.201	23.1533	23.4553
436.405	23.1225	23.4652
436.609	23.1443	23.473
436.813	23.1708	23.5306
437.017	23.1835	23.5576
437.221	23.1389	23.5349
437.424	23.2232	23.6119
437.628	23.286	23.6509
437.832	23.2568	23.6664
438.036	23.268	23.7016
438.239	23.2976	23.7133
438.443	23.2619	23.7037
438.646	23.3069	23.7793
438.85	23.3846	23.8093
439.054	23.3082	23.8001
439.257	23.3301	23.8843
439.461	23.3453	23.9116
439.664	23.3501	23.9554
439.868	23.3378	23.9784
440.071	23.3961	24.0271
440.274	23.429	24.0547
440.478	23.4228	24.0858
440.681	23.3961	24.1532
440.885	23.4624	24.2201
441.088	23.4542	24.2617
441.291	23.4574	24.3138
441.494	23.4641	24.3542
441.698	23.4247	24.4302
441.901	23.4355	24.4292
442.104	23.4675	24.4793
442.307	23.4584	24.5525
442.51	23.5206	24.6352
442.713	23.4976	24.6234
442.916	23.4951	24.7098
443.12	23.4696	24.7449
443.323	23.5096	24.8312
443.526	23.4688	24.849
443.729	23.5104	24.9271
443.932	23.4574	24.9386
444.134	23.469	25.0177
444.337	23.4806	25.0251
444.54	23.5225	25.1288
444.743	23.4661	25.155
444.946	23.4895	25.2606
445.149	23.4722	25.2526
445.352	23.5259	25.3691
445.554	23.521	25.3839
445.757	23.5666	25.4567
445.96	23.5286	25.4868
446.162	23.4714	25.5593
446.365	23.5358	25.6171
446.568	23.4748	25.6137
446.77	23.5568	25.6845
446.973	23.5137	25.696
447.175	23.5706	25.7753
447.378	23.6022	25.8703
447.58	23.5608	25.8381
447.783	23.566	25.8689
447.985	23.6066	25.9573
448.188	23.6475	26.007
448.39	23.6226	25.9569
448.593	23.6474	26.0416
448.795	23.7393	26.1024
448.997	23.7469	26.1066
449.2	23.8166	26.1417
449.402	23.7552	26.1768
449.604	23.7996	26.171
449.806	23.9066	26.2807
450.009	23.8572	26.2306
450.211	23.8702	26.2372
450.413	23.9229	26.2851
450.615	23.9616	26.39
450.817	24.0061	26.3584
451.019	24.0319	26.3459
451.221	24.087	26.3888
451.423	24.127	26.3746
451.625	24.1052	26.4265
451.827	24.1697	26.4312
452.029	24.2017	26.4282
452.231	24.2652	26.4377
452.433	24.2889	26.4544
452.635	24.2663	26.4165
452.837	24.3507	26.5393
453.039	24.3633	26.5569
453.24	24.3414	26.4781
453.442	24.3884	26.5481
453.644	24.4367	26.5538
453.846	24.6354	26.6817
454.047	24.5075	26.5996
454.249	24.5803	26.612
454.451	24.5618	26.6218
454.652	24.6356	26.6458
454.854	24.6371	26.7614
455.056	24.606	26.71
455.257	24.733	26.7347
455.459	24.7548	26.7539
455.66	24.7518	26.74
455.862	24.7535	26.807
456.063	24.7586	26.7995
456.265	24.7554	26.962
456.466	24.8045	26.8761
456.667	24.8815	26.9034
456.869	24.9205	26.9643
457.07	24.8439	26.9498
457.271	24.8434	26.9824
457.473	24.961	27.1258
457.674	24.9688	27.1006
457.875	24.9898	27.1002
458.076	24.9544	27.1124
458.277	25.025	27.1646
458.479	25.0172	27.1896
458.68	24.9486	27.1526
458.881	25.0987	27.309
459.082	25.2015	27.4129
459.283	25.1123	27.3291
459.484	25.1053	27.3434
459.685	25.122	27.4035
459.886	25.1599	27.466
460.087	25.1663	27.4286
460.288	25.2317	27.4938
460.489	25.2391	27.5601
460.69	25.2396	27.616
460.89	25.3443	27.7033
461.091	25.3407	27.6657
461.292	25.3354	27.634
461.493	25.3433	27.7632
461.694	25.4226	27.8148
461.894	25.3986	27.7828
462.095	25.4143	27.784
462.296	25.441	27.7737
462.496	25.4427	27.7845
462.697	25.4633	27.9015
462.898	25.5673	27.8353
463.098	25.5547	27.9798
463.299	25.4972	27.9037
463.499	25.591	27.9649
463.7	25.6445	28.0152
463.9	25.6523	27.9769
464.101	25.6128	28.0051
464.301	25.6788	28.0845
464.501	25.8032	28.136
464.702	25.7158	28.0185
464.902	25.8075	28.0999
465.103	25.88	28.219
465.303	25.8538	28.1804
465.503	25.8391	28.1095
465.703	25.8354	28.1665
465.904	25.9699	28.2647
466.104	25.9378	28.1959
466.304	26.1021	28.3567
466.504	26.089	28.2562
466.704	26.0464	28.2281
466.904	26.0875	28.2314
467.104	26.0966	28.228
467.304	26.2134	28.2846
467.504	26.1655	28.4071
467.704	26.2172	28.2406
467.904	26.3147	28.2974
468.104	26.289	28.3023
468.304	26.3831	28.3912
468.504	26.316	28.2996
468.704	26.3431	28.397
468.904	26.4709	28.3995
469.104	26.4485	28.4097
469.304	26.4584	28.3464
469.503	26.5113	28.4378
469.703	26.5929	28.4254
469.903	26.5914	28.4349
470.103	26.6211	28.4686
470.302	26.5946	28.4704
470.502	26.5552	28.4724
470.701	26.6877	28.5649
470.901	26.705	28.5935
471.101	26.7467	28.5532
471.3	26.7163	28.6539
471.5	26.7636	28.6523
471.699	26.757	28.6124
471.899	26.7819	28.6642
472.098	26.7289	28.5788
472.298	26.9161	28.7379
472.497	26.8974	28.6894
472.696	26.9374	28.6465
472.896	26.9527	28.6813
473.095	26.9051	28.6693
473.294	27.0508	28.7423
473.494	26.9617	28.7981
473.693	26.9477	28.7457
473.892	27.1341	28.8805
474.091	27.1154	28.8726
474.29	27.0795	28.8789
474.49	27.1819	28.8795
474.689	27.1461	28.8904
474.888	27.156	28.868
475.087	27.1317	28.9241
475.286	27.2261	28.9077
475.485	27.3328	29.029
475.684	27.3147	29.004
475.883	27.3491	28.9916
476.082	27.3507	28.9181
476.281	27.2987	28.993
476.48	27.4104	29.1284
476.678	27.4337	29.0693
476.877	27.4512	29.0766
477.076	27.5027	29.1538
477.275	27.5313	29.1853
477.474	27.4971	29.173
477.672	27.667	29.1621
477.871	27.7096	29.2246
478.07	27.6595	29.2872
478.269	27.6478	29.2916
478.467	27.6476	29.1031
478.666	27.7243	29.307
478.864	27.7632	29.3337
479.063	27.8022	29.3599
479.262	27.7773	29.338
479.46	27.8007	29.3897
479.659	27.7745	29.3656
479.857	27.8566	29.3719
480.055	27.8694	29.3657
480.254	27.9731	29.4529
480.452	28.0091	29.5295
480.651	27.9888	29.5625
480.849	28.0009	29.4645
481.047	28.0047	29.5548
481.246	28.0536	29.532
481.444	28.0024	29.5541
481.642	28.115	29.5037
481.84	28.1212	29.582
482.039	28.0978	29.572
482.237	28.1845	29.5965
482.435	28.2361	29.6133
482.633	28.2404	29.7165
482.831	28.2995	29.6703
483.029	28.2215	29.683
483.227	28.3288	29.6653
483.425	28.3546	29.6771
483.623	28.4055	29.6869
483.821	28.463	29.809
484.019	28.4175	29.7491
484.217	28.4874	29.8504
484.415	28.5269	29.8145
484.613	28.5232	29.8737
484.811	28.554	29.8147
485.008	28.5021	29.895
485.206	28.6528	29.869
485.404	28.6716	29.8632
485.602	28.5551	29.8453
485.799	28.6331	29.9158
485.997	28.6507	29.9244
486.195	28.6923	30.0154
486.392	28.7035	29.9424
486.59	28.7176	29.9749
486.788	28.7519	30.0495
486.985	28.7929	30.0424
487.183	28.7316	30.0412
487.38	28.8215	30.0716
487.578	28.9146	30.123
487.775	28.8238	30.1223
487.973	28.8783	30.1521
488.17	28.9718	30.1531
488.367	28.9032	30.1696
488.565	28.9235	30.2154
488.762	28.9668	30.2019
488.959	28.9525	30.183
489.157	29.059	30.294
489.354	28.9868	30.3089
489.551	28.9979	30.2639
489.749	29.0592	30.3577
489.946	29.1335	30.3047
490.143	29.1697	30.415
490.34	29.1636	30.4619
490.537	29.1218	30.3633
490.734	29.1349	30.3369
490.931	29.2247	30.4504
491.128	29.254	30.4663
491.325	29.208	30.4019
491.522	29.2325	30.5075
491.719	29.2941	30.4814
491.916	29.2897	30.5761
492.113	29.3201	30.5649
492.31	29.3986	30.5429
492.507	29.4176	30.5991
492.704	29.3691	30.6303
492.901	29.4294	30.6782
493.097	29.4439	30.7771
493.294	29.4573	30.6586
493.491	29.5301	30.7556
493.688	29.508	30.7796
493.884	29.5596	30.779
494.081	29.532	30.7744
494.278	29.5682	30.8176
494.474	29.6022	30.8233
494.671	29.5703	30.8311
494.867	29.6806	30.9314
495.064	29.6418	30.8597
495.26	29.7174	30.879
495.457	29.7106	30.8962
495.653	29.7499	30.9827
495.85	29.7567	30.9296
496.046	29.7737	31.0409
496.243	29.8211	31.041
496.439	29.8136	31.0779
496.635	29.8488	31.0698
496.832	29.842	31.0651
497.028	29.9264	31.1242
497.224	29.9437	31.2284
497.42	29.957	31.221
497.617	29.9291	31.1994
497.813	29.9514	31.2049
498.009	30.023	31.2282
498.205	29.9587	31.156
498.401	30.0057	31.2002
498.597	30.0887	31.2234
498.793	30.0664	31.3265
498.989	30.0513	31.2978
499.185	30.091	31.3429
499.381	30.143	31.4205
499.577	30.1902	31.405
499.773	30.1847	31.3863
499.969	30.2342	31.4808
500.165	30.2176	31.4272
500.361	30.232	31.4623
500.557	30.3285	31.5094
500.753	30.3351	31.4944
500.948	30.3366	31.5848
501.144	30.3747	31.6264
501.34	30.3167	31.6201
501.536	30.3642	31.628
501.731	30.3606	31.5972
501.927	30.4232	31.6953
502.123	30.4618	31.6592
502.318	30.466	31.7427
502.514	30.4938	31.6629
502.709	30.4851	31.7607
502.905	30.5345	31.7615
503.1	30.6609	31.9059
503.296	30.6165	31.8218
503.491	30.6288	31.898
503.687	30.5836	31.8564
503.882	30.6514	31.9051
504.078	30.68	31.9097
504.273	30.7279	31.9798
504.468	30.7544	32.0345
504.664	30.7552	32.0509
504.859	30.7789	32.0693
505.054	30.7969	32.0381
505.249	30.8541	32.0817
505.445	30.8786	32.1241
505.64	30.8965	32.1881
505.835	30.925	32.1806
506.03	30.9754	32.3082
506.225	30.9805	32.2522
506.42	31.0033	32.2925
506.615	31.0035	32.2868
506.81	31.0629	32.3083
507.005	31.0602	32.3315
507.2	31.102	32.3617
507.395	31.1479	32.3975
507.59	31.1639	32.4087
507.785	31.1661	32.4504
507.98	31.2052	32.4797
508.175	31.1863	32.5044
508.37	31.2293	32.4904
508.564	31.2855	32.5502
508.759	31.2577	32.5364
508.954	31.3408	32.628
509.149	31.3261	32.5802
509.343	31.3412	32.6138
509.538	31.3844	32.6606
509.733	31.3848	32.6848
509.927	31.4607	32.7746
510.122	31.5008	32.7612
510.317	31.4706	32.7627
510.511	31.484	32.822
510.706	31.5091	32.8668
510.9	31.5689	32.8871
511.095	31.5352	32.8638
511.289	31.6352	32.9247
511.484	31.6093	32.9221
511.678	31.6521	33.0047
511.872	31.7368	33.0374
512.067	31.6958	33.0436
512.261	31.7605	33.0678
512.455	31.7788	33.129
512.65	31.7702	33.0872
512.844	31.8322	33.1193
513.038	31.8181	33.1724
513.232	31.8749	33.2383
513.427	31.9194	33.2216
513.621	31.9436	33.2404
513.815	31.9594	33.2836
514.009	31.9602	33.2869
514.203	32.0417	33.3039
514.397	32.0409	33.408
514.591	32.0974	33.3801
514.785	32.1121	33.4538
514.979	32.1235	33.4539
515.173	32.1189	33.4666
515.367	32.1539	33.4749
515.561	32.1936	33.5472
515.755	32.215	33.5935
515.949	32.2521	33.5388
516.142	32.2416	33.6274
516.336	32.2867	33.5979
516.53	32.3218	33.6891
516.724	32.3781	33.6866
516.917	32.3841	33.6987
517.111	32.4231	33.7659
517.305	32.4789	33.8152
517.499	32.4606	33.801
517.692	32.4606	33.8557
517.886	32.4885	33.8338
518.079	32.5045	33.8684
518.273	32.5681	33.933
518.466	32.5942	33.9224
518.66	32.6571	33.9723
518.853	32.6316	33.9862
519.047	32.6799	34.0436
519.24	32.6758	34.0927
519.434	32.6382	34.0506
519.627	32.7494	34.117
519.82	32.7724	34.0959
520.014	32.7525	34.0961
520.207	32.7978	34.1368
520.4	32.8176	34.2169
520.594	32.842	34.218
520.787	32.8673	34.2056
520.98	32.8974	34.2651
521.173	32.9517	34.3287
521.366	32.907	34.3029
521.56	32.964	34.3229
521.753	33.0012	34.3873
521.946	32.9959	34.3885
522.139	33.1375	34.4457
522.332	33.0791	34.4095
522.525	33.1099	34.457
522.718	33.1156	34.5231
522.911	33.1375	34.5122
523.104	33.1753	34.5343
523.297	33.1703	34.5542
523.489	33.2225	34.6099
523.682	33.2551	34.6096
523.875	33.262	34.6347
524.068	33.2915	34.6479
524.261	33.3627	34.7118
524.453	33.4194	34.7307
524.646	33.3986	34.7085
524.839	33.4341	34.7914
525.031	33.3893	34.7752
525.224	33.4256	34.8018
525.417	33.4537	34.8013
525.609	33.501	34.8445
525.802	33.4979	34.8826
525.995	33.4947	34.8991
526.187	33.5581	34.9225
526.38	33.5454	34.8984
526.572	33.6298	34.9771
526.765	33.6301	34.9633
526.957	33.605	35.007
527.149	33.6714	35.0024
527.342	33.7779	35.0846
527.534	33.7478	35.0582
527.726	33.7517	35.1147
527.919	33.8209	35.1396
528.111	33.7794	35.1394
528.303	33.8346	35.1791
528.495	33.9256	35.2241
528.688	33.9211	35.2818
528.88	33.9219	35.2319
529.072	33.9557	35.3114
529.264	34.0065	35.3349
529.456	33.9975	35.3715
529.648	34.029	35.3115
529.84	34.0323	35.402
530.032	34.0844	35.447
530.224	34.0534	35.4157
530.416	34.076	35.4723
530.608	34.084	35.4812
530.8	34.1227	35.5078
530.992	34.2122	35.4961
531.184	34.2125	35.5694
531.376	34.1734	35.5893
531.568	34.264	35.6313
531.759	34.2388	35.6148
531.951	34.2938	35.7137
532.143	34.3358	35.6932
532.335	34.3155	35.6936
532.526	34.3991	35.7608
532.718	34.4341	35.7519
532.91	34.3723	35.7872
533.101	34.3968	35.757
533.293	34.4239	35.817
533.484	34.4571	35.8505
533.676	34.4478	35.862
533.868	34.5389	35.9109
534.059	34.5275	35.9013
534.251	34.5585	35.9619
534.442	34.5944	36.0246
534.633	34.6637	36.0588
534.825	34.6264	36.0098
535.016	34.7043	36.0943
535.208	34.6988	36.0675
535.399	34.6705	36.0828
535.59	34.7644	36.1499
535.781	34.7437	36.1817
535.973	34.8291	36.2058
536.164	34.8244	36.1534
536.355	34.859	36.2674
536.546	34.9218	36.251
536.737	34.9355	36.2865
536.929	34.9888	36.3238
537.12	34.9272	36.3499
537.311	34.9652	36.3464
537.502	35.0337	36.3566
537.693	35.0447	36.433
537.884	35.064	36.4378
538.075	35.083	36.4589
538.266	35.0759	36.4469
538.457	35.1629	36.5315
538.648	35.1902	36.5424
538.838	35.1419	36.5475
539.029	35.2306	36.6366
539.22	35.2733	36.6129
539.411	35.3318	36.6249
539.602	35.2761	36.6834
539.792	35.3489	36.7148
539.983	35.3872	36.7808
540.174	35.3927	36.7185
540.365	35.3282	36.7897
540.555	35.4116	36.8294
540.746	35.4683	36.8737
540.936	35.4811	36.8553
541.127	35.4887	36.8809
541.317	35.5642	36.9548
541.508	35.6142	36.9682
541.698	35.6393	36.9963
541.889	35.6466	37.0284
542.079	35.6627	37.0177
542.27	35.6947	37.0468
542.46	35.7309	37.1364
542.651	35.7117	37.1286
542.841	35.7849	37.1808
543.031	35.8363	37.227
543.222	35.8285	37.2436
543.412	35.9231	37.3393
543.602	35.8985	37.3409
543.792	35.9244	37.3278
543.982	35.9346	37.36
544.173	35.9854	37.3436
544.363	36.0671	37.4004
544.553	36.0314	37.3854
544.743	36.023	37.4729
544.933	36.0729	37.4882
545.123	36.0891	37.5016
545.313	36.1538	37.5172
545.503	36.1515	37.6018
545.693	36.1856	37.615
545.883	36.2973	37.6475
546.073	36.2498	37.6493
546.263	36.3064	37.7151
546.453	36.2902	37.6716
546.643	36.3312	37.7752
546.832	36.3443	37.7498
547.022	36.4229	37.8205
547.212	36.4223	37.8318
547.402	36.4201	37.83
547.591	36.4491	37.8666
547.781	36.4813	37.9356
547.971	36.5677	37.9848
548.16	36.5604	37.9615
548.35	36.5795	37.9585
548.54	36.5822	38.0383
548.729	36.6747	38.1199
548.919	36.6607	38.1034
549.108	36.7085	38.1057
549.298	36.7483	38.182
549.487	36.7671	38.235
549.677	36.7308	38.188
549.866	36.8169	38.2426
550.055	36.8846	38.2995
550.245	36.8549	38.2813
550.434	36.8835	38.2578
550.623	36.8881	38.3641
550.813	36.9406	38.4267
551.002	36.9866	38.4255
551.191	36.999	38.4866
551.381	37.0292	38.5005
551.57	37.0411	38.4793
551.759	37.0732	38.5855
551.948	37.1562	38.5783
552.137	37.1887	38.593
552.326	37.2237	38.6903
552.515	37.2185	38.7193
552.704	37.2143	38.7604
552.893	37.257	38.7033
553.082	37.2871	38.8506
553.271	37.3727	38.8284
553.46	37.3457	38.84
553.649	37.4196	38.8686
553.838	37.4021	38.8828
554.027	37.4269	38.9407
554.216	37.4602	38.9803
554.405	37.4801	38.9747
554.593	37.5202	39.0338
554.782	37.5471	39.0819
554.971	37.591	39.1264
555.16	37.6284	39.1604
555.348	37.6455	39.1434
555.537	37.6851	39.1838
555.726	37.702	39.2198
555.914	37.7586	39.2579
556.103	37.773	39.2732
556.291	37.8253	39.2709
556.48	37.7919	39.3212
556.668	37.8197	39.3763
556.857	37.8912	39.4192
557.045	37.911	39.4171
557.234	37.9494	39.4356
557.422	37.9291	39.5043
557.611	37.996	39.5894
557.799	37.9768	39.5537
557.987	38.0144	39.567
558.176	38.0338	39.5997
558.364	38.0993	39.6025
558.552	38.1448	39.698
558.74	38.1494	39.7287
558.929	38.1755	39.7063
559.117	38.1478	39.7212
559.305	38.2634	39.8151
559.493	38.2446	39.8073
559.681	38.3567	39.8547
559.869	38.3318	39.8737
560.057	38.3123	39.9089
560.245	38.3684	39.8796
560.433	38.4164	39.9172
560.621	38.4109	40.0141
560.809	38.4845	40.0262
560.997	38.5211	40.0597
561.185	38.5228	40.0928
561.373	38.5187	40.1126
561.561	38.564	40.1113
561.749	38.5769	40.1964
561.937	38.652	40.177
562.124	38.6469	40.2142
562.312	38.6928	40.2396
562.5	38.6792	40.2559
562.688	38.7203	40.3088
562.875	38.8017	40.3577
563.063	38.8136	40.355
563.251	38.8123	40.3837
563.438	38.7996	40.4369
563.626	38.8766	40.4202
563.813	38.9124	40.4782
564.001	38.925	40.4934
564.188	38.9379	40.5664
564.376	38.9581	40.5412
564.563	38.9941	40.571
564.751	38.9863	40.5837
564.938	39.0432	40.6332
565.126	39.0785	40.6845
565.313	39.0957	40.6989
565.5	39.1238	40.755
565.688	39.1621	40.7617
565.875	39.1303	40.7205
566.062	39.1928	40.7882
566.249	39.1856	40.7876
566.437	39.2505	40.8386
566.624	39.2328	40.9218
566.811	39.285	40.8069
566.998	39.3197	40.9565
567.185	39.3452	41.0043
567.372	39.3715	41.0322
567.559	39.3632	40.9746
567.746	39.45	41.0792
567.933	39.4525	41.0911
568.12	39.4279	41.1256
568.307	39.5032	41.1458
568.494	39.5499	41.1832
568.681	39.5601	41.1931
568.868	39.5778	41.1583
569.055	39.588	41.2567
569.242	39.6671	41.2441
569.429	39.6417	41.2128
569.615	39.6882	41.3222
569.802	39.726	41.3579
569.989	39.6599	41.381
570.176	39.7313	41.4137
570.362	39.7377	41.3876
570.549	39.7984	41.4068
570.736	39.8026	41.4458
570.922	39.8532	41.5205
571.109	39.8836	41.5946
571.295	39.8449	41.5218
571.482	39.8802	41.5734
571.668	39.9447	41.5679
571.855	39.9083	41.5812
572.041	39.9265	41.6424
572.228	39.9458	41.613
572.414	40.0116	41.67
572.601	40.0433	41.7101
572.787	40.0464	41.7342
572.973	40.0875	41.7895
573.16	40.0717	41.7551
573.346	40.1604	41.809
573.532	40.164	41.8524
573.718	40.1521	41.8491
573.905	40.1643	41.8947
574.091	40.2384	41.9346
574.277	40.216	41.9161
574.463	40.2471	41.9601
574.649	40.2704	41.9459
574.835	40.3294	41.9854
575.021	40.3918	42.0124
575.207	40.3351	42.0394
575.393	40.3751	42.0368
575.579	40.4063	42.0672
575.765	40.4791	42.1244
575.951	40.5249	42.1769
576.137	40.5364	42.1798
576.323	40.5004	42.2185
576.509	40.5004	42.1911
576.695	40.6029	42.259
576.88	40.5591	42.2951
577.066	40.6197	42.3129
577.252	40.6053	42.3048
577.438	40.6324	42.2886
577.623	40.6617	42.3655
577.809	40.6463	42.3651
577.995	40.7205	42.3924
578.18	40.7296	42.4063
578.366	40.767	42.4825
578.552	40.8327	42.4551
578.737	40.7899	42.4593
578.923	40.8608	42.5109
579.108	40.8476	42.5598
579.294	40.876	42.5479
579.479	40.9368	42.5812
579.665	40.8753	42.5876
579.85	40.9166	42.6416
580.035	40.9677	42.7035
580.221	40.9991	42.7262
580.406	40.9802	42.7597
580.591	41.0783	42.8014
580.777	41.1083	42.772
580.962	41.0762	42.7941
581.147	41.1117	42.8446
581.332	41.1443	42.8755
581.517	41.1504	42.8982
581.703	41.1515	42.8648
581.888	41.1593	42.9063
582.073	41.2474	42.8937
582.258	41.2348	42.9643
582.443	41.2252	42.9129
582.628	41.2882	43.0608
582.813	41.3015	42.9998
582.998	41.3525	43.0566
583.183	41.3615	43.0775
583.368	41.373	43.0983
583.553	41.3808	43.0829
583.738	41.4622	43.1886
583.923	41.4669	43.1314
584.107	41.5044	43.2468
584.292	41.5076	43.2001
584.477	41.5031	43.224
584.662	41.5402	43.2638
584.846	41.585	43.2936
585.031	41.6312	43.3238
585.216	41.6615	43.3645
585.4	41.6671	43.3598
585.585	41.7078	43.4191
585.77	41.7621	43.3988
585.954	41.7315	43.4689
586.139	41.7282	43.4603
586.323	41.7193	43.4985
586.508	41.7973	43.4757
586.692	41.8272	43.5136
586.877	41.8873	43.5464
587.061	41.9067	43.6076
587.246	41.9272	43.6563
587.43	41.9549	43.6981
587.614	41.9976	43.7143
587.799	42.0216	43.7372
587.983	41.9985	43.7159
588.167	42.0667	43.7559
588.351	42.1363	43.7876
588.536	42.2215	43.8524
588.72	42.1493	43.8165
588.904	42.2553	43.9215
589.088	42.2394	43.9133
589.272	42.2702	44.0047
589.456	42.2564	43.9762
589.641	42.2806	43.9931
589.825	42.309	44.0312
590.009	42.3213	44.0186
590.193	42.3543	44.0439
590.377	42.4372	44.1111
590.561	42.4425	44.1709
590.745	42.4418	44.109
590.928	42.4548	44.1637
591.112	42.5942	44.2042
591.296	42.5474	44.1916
591.48	42.5321	44.2761
591.664	42.5977	44.2594
591.848	42.6083	44.3067
592.031	42.6792	44.3258
592.215	42.6202	44.3333
592.399	42.7265	44.3911
592.582	42.684	44.3827
592.766	42.7216	44.3951
592.95	42.82	44.5054
593.133	42.7501	44.4724
593.317	42.8599	44.5199
593.5	42.8927	44.5371
593.684	42.9046	44.5683
593.867	42.8617	44.5812
594.051	42.8996	44.5838
594.234	42.9587	44.6259
594.418	42.961	44.6515
594.601	42.9971	44.6732
594.785	43.0371	44.6719
594.968	43.0655	44.7041
595.151	43.0611	44.7982
595.334	43.1211	44.8858
595.518	43.1672	44.8061
595.701	43.1403	44.8372
595.884	43.1995	44.9279
596.067	43.2211	44.937
596.251	43.2662	44.959
596.434	43.3188	44.9626
596.617	43.3187	45.0342
596.8	43.4114	45.0659
596.983	43.3695	45.0556
597.166	43.4293	45.157
597.349	43.4509	45.1691
597.532	43.4748	45.1923
597.715	43.5145	45.1574
597.898	43.5647	45.2201
598.081	43.557	45.237
598.264	43.5556	45.2316
598.447	43.6385	45.3741
598.63	43.6655	45.3918
598.812	43.6719	45.3518
598.995	43.7477	45.4301
599.178	43.771	45.4636
599.361	43.8089	45.4136
599.543	43.8407	45.466
599.726	43.8485	45.4586
599.909	43.896	45.5635
600.091	43.9454	45.5769
600.274	43.9179	45.5851
600.457	43.8914	45.5991
600.639	43.9743	45.7009
600.822	43.9958	45.7054
601.004	44.0433	45.7406
601.187	44.1055	45.7574
601.369	44.1228	45.7851
601.552	44.1862	45.8366
601.734	44.1804	45.8526
601.917	44.1945	45.8889
602.099	44.2925	45.9359
602.281	44.2503	45.9458
602.464	44.2641	45.9712
602.646	44.3536	46.0292
602.828	44.3649	45.9844
603.01	44.4722	46.1196
603.193	44.4799	46.1515
603.375	44.5019	46.1186
603.557	44.4761	46.1583
603.739	44.5688	46.2315
603.921	44.5624	46.2045
604.103	44.5875	46.2619
604.285	44.6096	46.2646
604.467	44.658	46.3188
604.65	44.7065	46.3768
604.832	44.7338	46.3607
605.013	44.7905	46.4107
605.195	44.816	46.4674
605.377	44.8473	46.4763
605.559	44.8565	46.503
605.741	44.924	46.5365
605.923	44.9364	46.5766
606.105	44.917	46.5739
606.287	44.9927	46.5711
606.468	45.0192	46.6579
606.65	45.0444	46.7294
606.832	45.0518	46.6918
607.013	45.0713	46.7393
607.195	45.1208	46.7515
607.377	45.1639	46.8149
607.558	45.1715	46.808
607.74	45.18	46.8653
607.922	45.2404	46.8471
608.103	45.2395	46.8619
608.285	45.2787	46.8977
608.466	45.3222	46.9432
608.648	45.326	46.9667
608.829	45.4039	47.0283
609.01	45.3439	47.0035
609.192	45.3828	47.049
609.373	45.4322	47.0834
609.555	45.4748	47.0883
609.736	45.5148	47.1802
609.917	45.5163	47.1804
610.099	45.5652	47.1314
610.28	45.5656	47.1835
610.461	45.6062	47.2596
610.642	45.589	47.2234
610.823	45.6208	47.2218
611.004	45.6686	47.3269
611.186	45.7391	47.282
611.367	45.6959	47.3195
611.548	45.7519	47.3763
611.729	45.7709	47.3541
611.91	45.8147	47.4376
612.091	45.8736	47.4039
612.272	45.864	47.4843
612.453	45.8472	47.5303
612.634	45.9217	47.5815
612.815	45.9425	47.5563
612.995	45.9968	47.5345
613.176	45.9897	47.588
613.357	46.0203	47.5522
613.538	46.0176	47.6011
613.719	46.0144	47.631
613.899	46.0681	47.6611
614.08	46.0744	47.7123
614.261	46.1115	47.7443
614.441	46.1651	47.8305
614.622	46.1906	47.7327
614.803	46.1628	47.8099
614.983	46.2366	47.8332
615.164	46.267	47.8242
615.344	46.2817	47.8531
615.525	46.2329	47.8541
615.705	46.3079	47.8567
615.886	46.3908	47.9254
616.066	46.3679	47.9596
616.247	46.3969	47.981
616.427	46.39	47.9761
616.607	46.4414	48.0008
616.788	46.4748	48.0381
616.968	46.4611	48.055
617.148	46.5448	48.1096
617.329	46.594	48.1442
617.509	46.554	48.0339
617.689	46.6246	48.1289
617.869	46.5911	48.1377
618.049	46.6387	48.1814
618.23	46.6463	48.1292
618.41	46.6528	48.1723
618.59	46.6613	48.1575
618.77	46.7608	48.2159
618.95	46.7454	48.2486
619.13	46.7323	48.2774
619.31	46.7411	48.3167
619.49	46.7853	48.2881
619.67	46.7646	48.3379
619.85	46.8527	48.3904
620.03	46.871	48.359
620.209	46.8773	48.3866
620.389	46.8857	48.4056
620.569	46.938	48.474
620.749	46.9438	48.4979
620.929	47.0138	48.4803
621.108	47.0783	48.5378
621.288	47.0451	48.5319
621.468	47.1108	48.5534
621.647	47.0688	48.5889
621.827	47.0749	48.5677
622.007	47.1312	48.6298
622.186	47.0967	48.6102
622.366	47.1617	48.6628
622.545	47.1247	48.6171
622.725	47.1779	48.6415
622.904	47.1795	48.6795
623.084	47.252	48.6858
623.263	47.2302	48.7029
623.443	47.2621	48.7598
623.622	47.336	48.7415
623.802	47.3313	48.7779
623.981	47.2629	48.8661
624.16	47.3551	48.8375
624.339	47.3939	48.8857
624.519	47.4059	48.9202
624.698	47.4845	48.917
624.877	47.5036	48.9261
625.056	47.5307	48.9296
625.235	47.5067	48.9178
625.415	47.4895	48.9226
625.594	47.4419	48.9366
625.773	47.5425	49.0053
625.952	47.5738	48.974
626.131	47.6308	49.0763
626.31	47.5901	49.0784
626.489	47.6727	49.1197
626.668	47.6485	49.0956
626.847	47.6316	49.1562
627.026	47.7205	49.1504
627.205	47.7619	49.1562
627.383	47.7878	49.1709
627.562	47.7616	49.1601
627.741	47.7687	49.2314
627.92	47.7677	49.1954
628.099	47.7867	49.2098
628.277	47.8555	49.2612
628.456	47.8823	49.2731
628.635	47.8146	49.236
628.813	47.8389	49.2838
628.992	47.8842	49.342
629.171	47.9351	49.3513
629.349	47.9477	49.3318
629.528	47.9668	49.3667
629.706	47.9624	49.4155
629.885	48.0184	49.4308
630.063	48.009	49.4152
630.242	48.0226	49.4358
630.42	48.0488	49.493
630.599	48.0871	49.483
630.777	48.075	49.4543
630.955	48.0954	49.5358
631.134	48.1888	49.5724
631.312	48.1855	49.5817
631.49	48.1495	49.5843
631.669	48.2011	49.6099
631.847	48.2441	49.6197
632.025	48.2199	49.5791
632.203	48.1748	49.6446
632.381	48.2852	49.7043
632.56	48.2573	49.663
632.738	48.3109	49.7053
632.916	48.3858	49.7431
633.094	48.4226	49.8184
633.272	48.4292	49.813
633.45	48.4138	49.8306
633.628	48.4201	49.8139
633.806	48.4678	49.886
633.984	48.5003	49.8396
634.162	48.4765	49.8819
634.339	48.479	49.8545
634.517	48.4099	49.7801
634.695	48.5024	49.907
634.873	48.5359	49.872
635.051	48.6	49.9575
635.229	48.6239	49.8945
635.406	48.6383	49.9815
635.584	48.6568	49.9807
635.762	48.6595	49.9853
635.939	48.6903	50.0491
636.117	48.7142	50.0385
636.295	48.6891	50.0672
636.472	48.764	50.078
636.65	48.7736	50.1474
636.827	48.7642	50.1041
637.005	48.8487	50.1964
637.182	48.8346	50.1534
637.36	48.89	50.1957
637.537	48.8726	50.2529
637.715	48.9227	50.227
637.892	48.8853	50.2122
638.069	48.9444	50.3072
638.247	49.0322	50.3079
638.424	48.983	50.3201
638.601	49.0043	50.3317
638.778	48.9638	50.3604
638.956	49.0521	50.3586
639.133	49.0363	50.4108
639.31	49.005	50.418
639.487	49.0508	50.4751
639.664	49.0839	50.4247
639.841	49.143	50.4869
640.019	49.1967	50.5416
640.196	49.2039	50.4791
640.373	49.2109	50.5365
640.55	49.2304	50.5724
640.727	49.277	50.5388
640.904	49.2638	50.6013
641.081	49.3317	50.617
641.257	49.3135	50.6972
641.434	49.2832	50.6399
641.611	49.4163	50.7581
641.788	49.3912	50.7264
641.965	49.4434	50.708
642.142	49.4214	50.7445
642.318	49.3743	50.6928
642.495	49.4551	50.8367
642.672	49.4936	50.7405
642.848	49.5494	50.7744
643.025	49.4918	50.8217
643.202	49.5611	50.8645
643.378	49.5825	50.8659
643.555	49.5747	50.8421
643.731	49.6773	50.8779
643.908	49.6255	50.8721
644.084	49.5878	50.8928
644.261	49.6847	50.945
644.437	49.6591	50.8662
644.614	49.7361	50.9483
644.79	49.8075	51.0314
644.967	49.7705	51.0343
645.143	49.7931	51.0673
645.319	49.7875	51.0439
645.496	49.7563	51.0906
645.672	49.8689	51.1913
645.848	49.8876	51.1674
646.024	49.8187	51.0933
646.201	49.9171	51.0979
646.377	49.9209	51.153
646.553	49.9203	51.1201
646.729	49.9773	51.2271
646.905	50.0038	51.211
647.081	49.9551	51.2016
647.257	50.0397	51.1869
647.433	50.0183	51.2706
647.609	50.0226	51.2655
647.785	50.0172	51.3027
647.961	50.0816	51.3325
648.137	50.2087	51.3799
648.313	50.1695	51.4061
648.489	50.1374	51.3914
648.665	50.2034	51.3735
648.841	50.1695	51.4623
649.016	50.194	51.4804
649.192	50.2383	51.4149
649.368	50.3324	51.5188
649.544	50.3554	51.5241
649.719	50.3401	51.566
649.895	50.3137	51.4851
650.071	50.318	51.5793
650.246	50.2827	51.5246
650.422	50.3337	51.568
650.597	50.3781	51.6077
650.773	50.4143	51.6461
650.949	50.4139	51.6782
651.124	50.4202	51.6924
651.3	50.4632	51.7289
651.475	50.5004	51.7703
651.65	50.5679	51.738
651.826	50.5335	51.7583
652.001	50.6247	51.8624
652.177	50.609	51.8893
652.352	50.6349	51.8061
652.527	50.6047	51.8456
652.702	50.6442	51.9157
652.878	50.7161	51.8793
653.053	50.7343	51.9498
653.228	50.7951	51.9239
653.403	50.7794	51.9452
653.578	50.8357	52.0235
653.754	50.867	52.0106
653.929	50.8295	52.0351
654.104	50.8918	52.0715
654.279	50.9004	52.0178
654.454	50.9357	52.0635
654.629	50.8914	52.0647
654.804	50.8843	52.1037
654.979	50.9601	52.144
655.154	50.9634	52.1626
655.329	50.9365	52.1329
655.503	51.0129	52.1419
655.678	51.0492	52.2391
655.853	51.0354	52.1402
656.028	51.0476	52.2049
656.203	51.0984	52.2577
656.377	51.1868	52.2972
656.552	51.112	52.2457
656.727	51.1969	52.34
656.902	51.1653	52.3457
657.076	51.2541	52.315
657.251	51.2827	52.4199
657.425	51.2272	52.4528
657.6	51.2608	52.4746
657.775	51.3806	52.5277
657.949	51.4004	52.5462
658.124	51.4484	52.5456
658.298	51.346	52.4864
658.472	51.3678	52.5495
658.647	51.5124	52.567
658.821	51.4295	52.5044
658.996	51.3811	52.4834
659.17	51.428	52.5516
659.344	51.4705	52.65
659.519	51.5077	52.6745
659.693	51.6056	52.7243
659.867	51.5108	52.7808
660.041	51.5934	52.787
660.216	51.6245	52.8384
660.39	51.5507	52.7626
660.564	51.632	52.7812
660.738	51.6655	52.8136
660.912	51.7628	52.8559
661.086	51.7314	52.8081
661.26	51.7396	52.8806
661.434	51.7294	52.8781
661.608	51.7327	52.9154
661.782	51.7696	52.9037
661.956	51.8403	52.974
662.13	51.7942	52.8806
662.304	51.8646	52.9471
662.478	51.8612	52.9118
662.652	51.8601	53.0167
662.826	51.9037	52.9954
662.999	51.9055	53.096
663.173	51.9508	53.0768
663.347	51.9573	53.0406
663.521	51.9796	53.1407
663.694	52.0765	53.2035
663.868	52.027	53.2082
664.042	52.086	53.2434
664.215	52.1074	53.1973
664.389	52.1501	53.218
664.562	52.2233	53.2262
664.736	52.1354	53.2598
664.909	52.1583	53.21
665.083	52.1528	53.2935
665.256	52.2113	53.3327
665.43	52.2135	53.3386
665.603	52.3164	53.3773
665.777	52.2843	53.4247
665.95	52.3488	53.3893
666.123	52.3636	53.4423
666.297	52.3215	53.3853
666.47	52.3847	53.4758
666.643	52.3219	53.4276
666.816	52.3634	53.5207
666.99	52.4055	53.4931
667.163	52.4108	53.5108
667.336	52.6017	53.5733
667.509	52.5365	53.6018
667.682	52.6117	53.5629
667.855	52.614	53.6705
668.029	52.6398	53.6551
668.202	52.6134	53.7473
668.375	52.628	53.6602
668.548	52.6246	53.7481
668.721	52.6853	53.763
668.893	52.5707	53.6964
669.066	52.67	53.8567
669.239	52.7222	53.7894
669.412	52.7391	53.8018
669.585	52.8058	53.9402
669.758	52.7731	53.7997
669.931	52.8066	53.8465
670.103	52.8589	53.9349
670.276	52.7319	53.9671
670.449	52.7612	53.9118
670.622	52.7892	54.0493
670.794	52.878	53.9427
670.967	53.0017	54.0039
671.139	52.9562	54.0286
671.312	52.9625	54.0863
671.485	52.8949	54.0474
671.657	52.9725	54.1481
671.83	52.9504	54.0452
672.002	53.0566	54.0762
672.175	53.1538	54.19
672.347	53.0755	54.144
672.519	53.0512	54.1408
672.692	53.1593	54.2499
672.864	53.2151	54.2903
673.037	53.2457	54.2779
673.209	53.3648	54.3256
673.381	53.2727	54.2827
673.553	53.1863	54.3528
673.726	53.4242	54.4207
673.898	53.2971	54.3251
674.07	53.2246	54.4398
674.242	53.3576	54.3471
674.414	53.5163	54.429
674.587	53.4385	54.3999
674.759	53.4421	54.4874
674.931	53.3663	54.3615
675.103	53.5239	54.5726
675.275	53.4488	54.5048
675.447	53.4653	54.6102
675.619	53.4972	54.5858
675.791	53.6302	54.6332
675.963	53.5872	54.4898
676.134	53.5228	54.6059
676.306	53.6459	54.6355
676.478	53.61	54.6582
676.65	53.6768	54.757
676.822	53.6689	54.8033
676.994	53.7196	54.7327
677.165	53.7051	54.8231
677.337	53.7041	54.7993
677.509	53.9364	54.9083
677.68	53.8087	54.8372
677.852	53.861	54.8913
678.024	53.7649	54.7455
678.195	53.8403	54.8448
678.367	53.846	54.9176
678.538	53.7948	54.8527
678.71	53.9937	55.0099
678.881	53.9008	54.9274
679.053	53.9346	54.9572
679.224	53.9886	55.0179
679.396	53.896	55.0648
679.567	53.9839	55.0937
679.738	54.005	55.1469
679.91	54.0988	55.182
680.081	54.1127	55.0667
680.252	54.1487	55.2366
680.424	54.1711	55.1999
680.595	54.2486	55.1641
680.766	54.1695	55.2196
680.937	54.1838	55.1726
681.108	54.2624	55.26
681.28	54.1939	55.3088
681.451	54.2401	55.3163
681.622	54.2863	55.387
681.793	54.2831	55.3196
681.964	54.3778	55.2532
682.135	54.371	55.3667
682.306	54.499	55.4953
682.477	54.3815	55.4064
682.648	54.4867	55.4486
682.819	54.4772	55.4141
682.99	54.5311	55.4829
683.16	54.4241	55.4504
683.331	54.6328	55.6147
683.502	54.5746	55.5975
683.673	54.5059	55.5995
683.844	54.5544	55.5161
684.014	54.5903	55.6941
684.185	54.6926	55.7078
684.356	54.755	55.7034
684.526	54.5981	55.6797
684.697	54.7531	55.7969
684.868	54.7219	55.7897
685.038	54.8005	55.9023
685.209	54.876	55.8359
685.379	54.6924	55.8794
685.55	54.6819	55.8301
685.72	54.926	55.932
685.891	54.8819	55.9408
686.061	54.87	56.097
686.232	54.8559	55.9491
686.402	54.8949	56.0582
686.572	54.9638	56.136
686.743	54.8389	55.9482
686.913	54.9765	55.9852
687.083	55.0092	56.051
687.254	55.1847	56.1438
687.424	55.0433	56.1536
687.594	54.9825	56.0907
687.764	55.0147	56.0593
687.934	55.0597	56.1921
688.104	55.0239	56.0558
688.275	55.271	56.2147
688.445	55.1485	56.1536
688.615	55.1936	56.2015
688.785	55.1965	56.2451
688.955	55.1637	56.217
689.125	55.272	56.1503
689.295	55.3228	56.2278
689.465	55.2999	56.308
689.635	55.4271	56.3459
689.805	55.3082	56.3128
689.974	55.2907	56.3326
690.144	55.3347	56.2533
690.314	55.4028	56.2859
690.484	55.5001	56.5419
690.654	55.4602	56.4533
690.823	55.3776	56.4163
690.993	55.4716	56.3889
691.163	55.4013	56.4173
691.332	55.4732	56.5583
691.502	55.5604	56.5891
691.672	55.4527	56.4182
691.841	55.5716	56.5657
692.011	55.5495	56.5144
692.18	55.5713	56.594
692.35	55.5944	56.5606
692.519	55.6376	56.6112
692.689	55.5278	56.6527
692.858	55.6767	56.5638
693.027	55.5019	56.5302
693.197	55.6173	56.737
693.366	55.5467	56.5886
693.536	55.6701	56.7289
693.705	55.627	56.579
693.874	55.6205	56.7436
694.043	55.7314	56.7439
694.213	55.783	56.8617
694.382	55.8468	56.7026
694.551	55.9321	56.8263
694.72	55.8648	56.7235
694.889	55.9894	56.804
695.058	55.9488	56.9738
695.228	55.9475	57.0574
695.397	55.8799	56.9426
695.566	56.0067	57.043
695.735	56.0624	57.0367
695.904	56.1023	57.0534
696.073	55.9737	57.1408
696.242	56.0956	56.976
696.41	56.1286	57.0092
696.579	56.039	57.1029
696.748	56.1489	57.2348
696.917	56.1853	57.2214
697.086	56.1553	57.2452
697.255	56.2037	57.2098
697.423	56.2435	57.1148
697.592	56.2811	57.2561
697.761	56.2448	57.2291
697.929	56.2998	57.2642
698.098	56.2834	57.3517
698.267	56.4847	57.4553
698.435	56.5225	57.4089
698.604	56.3266	57.2404
698.772	56.3242	57.4146
698.941	56.3209	57.3183
699.109	56.3542	57.447
699.278	56.4591	57.5118
699.446	56.4385	57.4322
699.615	56.6911	57.659
699.783	56.4799	57.4956
699.952	56.4832	57.568
700.12	56.4802	57.5554
700.288	56.6334	57.7719
700.457	56.7158	57.7852
700.625	56.6298	57.7696
700.793	56.6124	57.5723
700.961	56.7183	57.6722
701.13	56.7727	57.6592
701.298	56.7565	57.6929
701.466	56.7836	57.864
701.634	56.6882	57.8292
701.802	56.839	57.9253
701.97	56.9326	57.9777
702.138	56.8098	57.8057
702.306	56.8937	57.8848
702.474	56.9198	57.8718
702.642	56.7838	57.9895
702.81	56.878	58.014
702.978	56.949	57.8704
703.146	56.8338	57.8789
703.314	56.9427	57.992
703.482	56.7771	57.9096
703.65	56.9792	57.8927
703.818	57.1563	58.1116
703.985	57.1004	57.9457
704.153	56.9812	58.0695
704.321	56.9248	57.9068
704.488	57.1403	58.1807
704.656	57.1354	58.168
704.824	57.0948	58.0736
704.991	57.217	58.1565
705.159	57.2986	58.2326
705.327	57.1819	58.2689
705.494	57.2777	58.2328
705.662	57.3182	58.2677
705.829	57.2673	58.4023
705.997	57.1797	58.2065
706.164	57.2648	58.0387
706.332	57.4817	58.2866
706.499	57.2844	58.2951
706.666	57.3332	58.4786
706.834	57.642	58.5259
707.001	57.2408	58.3332
707.168	57.5521	58.5304
707.336	57.259	58.1882
707.503	57.5032	58.587
707.67	57.4188	58.4776
707.837	57.5915	58.6782
708.004	57.5839	58.5058
708.172	57.2975	58.5057
708.339	57.491	58.6157
708.506	57.4811	58.2937
708.673	57.4321	58.3032
708.84	57.3968	58.4506
709.007	57.4291	58.659
709.174	57.6249	58.7221
709.341	57.8062	58.8466
709.508	57.5611	58.6037
709.675	57.6097	58.6638
709.842	57.5249	58.5426
710.009	57.5738	58.5243
710.175	57.7451	58.5602
710.342	57.8492	58.6946
710.509	57.5506	58.8432
710.676	57.6949	58.8022
710.843	57.6669	58.7534
711.009	57.883	59.0746
711.176	57.8386	58.5994
711.343	58.0688	59.0205
711.509	57.8482	58.5297
711.676	57.7668	59.0126
711.843	57.9373	58.6635
712.009	57.9572	58.8133
712.176	58.0021	58.9006
712.342	58.057	59.0495
712.509	57.9172	59.0371
712.675	57.7619	58.6948
712.842	58.1241	58.857
713.008	57.8729	58.9081
713.174	58.1525	59.3745
713.341	58.0273	58.8801
713.507	57.9186	59.0176
713.673	57.9612	59.1833
713.84	57.9898	59.2221
714.006	58.2584	59.134
714.172	58.0452	59.0144
714.339	58.0509	58.9987
714.505	58.0911	59.0424
714.671	58.0448	58.9261
714.837	58.2466	59.3034
715.003	58.1787	59.27
715.169	58.3243	59.3416
715.335	58.3562	59.2718
715.501	58.1825	59.2169
715.667	58.4478	59.4652
715.833	58.2764	59.1153
715.999	58.3272	59.5883
716.165	57.9826	59.0289
716.331	58.2939	59.3668
716.497	58.2721	59.3428
716.663	58.4904	59.6083
716.829	58.4453	59.5557
716.995	58.3866	59.2512
717.161	58.1968	59.2298
717.326	58.6063	59.3687
717.492	58.2008	59.3582
717.658	58.8483	59.9214
717.823	58.0971	59.323
717.989	58.463	59.3578
718.155	58.3812	59.4315
718.32	58.322	59.391
718.486	58.8346	59.6876
718.651	58.6169	59.7242
718.817	58.4196	59.4887
718.983	58.812	59.6403
719.148	58.2998	59.5857
719.314	58.5814	59.6187
719.479	58.2672	59.2776
719.644	58.5151	59.808
719.81	58.2407	59.3321
719.975	58.8779	59.9566
720.141	58.5425	59.4857
720.306	58.9014	60.047
720.471	58.6989	59.8693
720.636	58.6837	59.7249
720.802	58.2701	59.2928
720.967	58.8852	60.016
721.132	59.2162	59.6634
721.297	58.9022	59.8402
721.462	58.6506	59.5994
721.628	58.7832	59.6772
721.793	58.5262	59.5845
721.958	58.5062	59.4993
722.123	59.0327	59.6717
722.288	58.752	59.7947
722.453	58.3924	59.2391
722.618	59.002	59.8633
722.783	59.1276	59.9281
722.948	58.7467	59.6093
723.112	58.6953	59.712
723.277	58.795	59.4284
723.442	58.9223	59.7826
723.607	58.6904	59.6269
723.772	58.6029	59.7241
723.937	58.6531	59.7645
724.101	58.5161	59.1941
724.266	59.117	60.3643
724.431	58.9758	60.1619
724.595	59.2597	60.7722
724.76	59.4042	59.3971
724.925	59.4808	60.4361
725.089	58.5296	59.4341
725.254	59.519	60.1859
725.418	58.5497	60.0451
725.583	58.6677	60.2504
725.747	59.1254	59.6241
725.912	58.9751	61.0719
726.076	59.0985	60.2502
726.241	59.2179	60.5292
726.405	59.3966	59.9066
726.57	58.6477	59.6933
726.734	59.4167	60.5356
726.898	58.7728	59.95
727.062	70.1658	69.3834
727.227	59.2665	60.0792
727.391	58.6564	59.436
727.555	59.1669	60.0554
727.719	59.5771	60.1999
727.884	58.9105	60.2849
728.048	59.0824	59.4283
728.212	59.255	60.4251
728.376	59.7617	61.0801
728.54	59.3552	60.5008
728.704	58.8731	59.9122
728.868	59.2747	60.1727
729.032	59.6233	60.4637
729.196	59.6371	60.2852
729.36	59.3683	60.3559
729.524	59.0137	60.257
729.688	59.4771	60.6519
729.852	59.0292	59.8823
730.015	59.4126	61.0786
730.179	59.5307	60.4582
730.343	59.217	60.156
730.507	59.7255	60.8854
730.671	59.5245	59.9863
730.834	60.1536	60.7866
730.998	59.4474	59.7204
731.162	59.8262	60.6985
731.325	59.4084	60.3278
731.489	59.0011	60.46
731.652	58.5483	60.1179
731.816	60.2302	61.2253
731.98	58.9571	60.1776
732.143	59.4539	60.2789
732.307	59.2051	60.3155
732.47	59.3866	60.1629
732.633	59.3949	59.8936
732.797	60.0788	60.6367
732.96	59.4584	60.9801
733.124	59.8798	60.6308
733.287	59.281	60.4752
733.45	59.333	60.4596
733.614	59.6389	60.8185
733.777	59.5286	61.0115
733.94	59.5318	60.4788
734.103	59.9806	61.044
734.266	60.1546	61.2928
734.43	59.5066	61.2714
734.593	59.2513	60.0961
734.756	60.1506	61.148
734.919	60.2196	60.7697
735.082	59.8426	60.7123
735.245	59.2603	59.9304
735.408	59.5939	60.8
735.571	59.9168	60.9908
735.734	59.7187	60.7066
735.897	60.0448	61.1261
736.06	60.1749	61.2571
736.223	59.2755	60.2679
736.386	59.155	60.8037
736.549	60.4777	61.2601
736.711	60.1823	61.0403
736.874	59.9776	60.46
737.037	60.2138	61.1817
737.2	59.4354	60.5373
737.362	59.9542	60.7048
737.525	60.039	60.7242
737.688	60.4168	61.5296
737.85	59.2902	60.2702
738.013	60.4436	61.31
738.176	59.7149	60.1901
738.338	59.6288	60.7003
738.501	60.0106	60.2642
738.663	59.9376	61.3829
738.826	60.0473	61.2758
738.988	60.3112	61.6991
739.151	60.0723	60.6313
739.313	61.3	61.8922
739.475	59.8774	60.9995
739.638	60.5563	61.8547
739.8	59.5101	61.0766
739.962	60.0534	60.8774
740.125	60.3781	61.6669
740.287	60.4519	61.6224
740.449	60.7168	60.9035
740.611	59.906	60.779
740.774	60.2	61.2313
740.936	60.9053	62.306
741.098	60.4827	61.5934
741.26	60.8349	62.0703
741.422	60.5435	62.0217
741.584	61.1267	62.647
741.746	60.5739	61.1487
741.908	60.751	61.5539
742.07	59.8203	61.6834
742.232	60.2728	61.1337
742.394	59.876	60.8544
742.556	60.3283	62.0678
742.718	59.676	61.3557
742.88	60.1637	60.9417
743.042	60.3954	61.5025
743.203	60.7559	61.8241
743.365	60.8752	61.9587
743.527	60.7959	62.2394
743.689	60.794	61.6169
743.85	61.338	61.9151
744.012	60.3704	60.8135
744.174	60.9287	61.6785
744.335	60.1769	61.3916
744.497	61.5619	62.6013
744.658	59.8187	61.1414
744.82	61.869	63.095
744.982	60.3322	61.4037
745.143	60.5075	61.6073
745.305	60.2709	60.8482
745.466	60.4945	61.6167
745.627	61.098	61.5673
745.789	60.4565	61.5148
745.95	60.3332	61.9549
746.112	60.3756	61.1953
746.273	60.7652	62.3814
746.434	61.0952	62.0152
746.596	61.2373	62.4039
746.757	61.2251	62.1827
746.918	60.6495	61.6842
747.079	61.9572	62.5011
747.24	61.228	61.6415
747.402	60.2077	61.7187
747.563	61.1753	61.1416
747.724	61.3813	62.8136
747.885	60.5948	62.067
748.046	60.8184	62.2839
748.207	61.3707	62.1949
748.368	61.3077	61.8209
748.529	61.6751	62.681
748.69	60.794	62.0439
748.851	60.8426	61.8935
749.012	62.055	62.6692
749.173	61.1553	62.0858
749.334	61.8607	62.5685
749.494	61.3064	62.6021
749.655	61.4415	62.4311
749.816	61.2305	62.0488
749.977	61.4147	62.2997
750.137	60.4415	61.744
750.298	61.0325	62.3871
750.459	61.9159	62.3307
750.62	61.2041	62.5578
750.78	61.2224	62.9811
750.941	62.4516	63.6048
751.101	60.8134	62.09
751.262	60.4096	62.5932
751.422	61.7117	62.3711
751.583	62.1667	64.0521
751.743	61.109	62.26
751.904	62.2069	63.4823
752.064	61.1914	61.451
752.225	62.366	63.5608
752.385	61.6751	63.5074
752.545	62.0162	63.4067
752.706	61.9079	63.1435
752.866	62.395	63.8883
753.026	61.4617	63.098
753.187	61.8298	64.3319
753.347	61.8484	62.9748
753.507	62.0755	63.2058
753.667	61.608	62.5796
753.827	61.2189	63.1322
753.988	62.8584	62.5557
754.148	61.8746	63.1733
754.308	61.2737	62.1896
754.468	61.5889	63.0092
754.628	61.5101	63.0065
754.788	61.4358	62.4668
754.948	60.8191	62.1572
755.108	62.0783	63.2003
755.268	62.3297	63.486
755.428	61.9417	63.4124
755.587	61.7394	62.6957
755.747	62.6302	63.7112
755.907	61.8942	63.0673
756.067	61.3518	62.6901
756.227	62.8475	63.1511
756.386	62.1128	63.5643
756.546	61.3523	61.8971
756.706	62.11	62.884
756.866	61.9074	63.3823
757.025	61.2812	62.9369
757.185	61.6784	62.8762
757.344	61.9428	62.5975
757.504	61.438	62.1007
757.664	61.7953	63.3932
757.823	61.2281	63.0026
757.983	61.3815	62.8187
758.142	61.6087	62.621
758.302	61.6222	63.8251
758.461	61.4141	64.0068
758.62	62.2705	63.9796
758.78	61.7336	62.7242
758.939	61.9607	63.6881
759.098	61.5542	62.4332
759.258	62.9606	64.2673
759.417	62.335	63.1021
759.576	62.3968	64.3145
759.735	62.1155	63.412
759.895	63.0322	64.3625
760.054	61.9451	64.2016
760.213	62.3593	64.613
760.372	62.0863	62.8494
760.531	62.6835	63.561
760.69	62.5821	63.2957
760.849	62.7618	63.1796
761.008	61.3465	62.911
761.167	61.9191	63.9612
761.326	62.0945	63.5708
761.485	60.921	62.5257
761.644	62.4299	63.7978
761.803	61.5413	62.9578
761.962	62.6822	63.4862
762.121	63.3024	65.0999
762.28	62.3167	63.9201
762.439	62.9466	64.0603
762.597	62.0875	63.1326
762.756	61.7599	63.9427
762.915	62.0992	62.8715
763.073	62.2527	64.4754
763.232	62.7662	63.7583
763.391	62.9299	64.194
763.549	63.2038	63.4689
763.708	62.5755	63.9591
763.867	62.1861	63.3677
764.025	62.8438	63.7321
764.184	61.7325	63.5603
764.342	63.2964	65.0342
764.501	62.8208	63.1776
764.659	62.0616	64.2549
764.818	61.6557	62.6996
764.976	63.3425	64.244
765.134	62.7365	62.3738
765.293	62.238	63.7573
765.451	63.0318	63.1502
765.609	62.6047	63.8436
765.768	62.3166	63.145
765.926	61.793	63.4803
766.084	61.8067	63.3362
766.242	62.3139	63.8845
766.4	62.9446	64.536
766.559	63.7172	64.3204
766.717	62.7334	63.849
766.875	62.8204	64.7512
767.033	61.9929	62.9067
767.191	62.8499	64.9796
767.349	62.749	63.2672
767.507	64.1673	63.2177
767.665	63.6044	63.9045
767.823	62.857	65.7371
767.981	62.8846	63.8231
768.139	62.5137	65.1771
768.297	62.6153	64.518
768.454	62.2215	63.3355
768.612	62.7033	64.1511
768.77	63.386	64.2889
768.928	62.2696	63.7405
769.086	62.2775	64.4447
769.243	64.1559	64.9326
769.401	62.9464	63.9959
769.559	62.4418	63.6881
769.716	63.1493	63.6156
769.874	63.4781	64.0351
770.031	62.4736	64.4163
770.189	61.5194	63.7191
770.347	62.987	64.21
770.504	63.5695	63.8735
770.662	61.5252	61.7956
770.819	63.2524	63.7222
770.977	63.2791	64.9192
771.134	61.9734	63.8317
771.291	62.3674	63.3869
771.449	60.6131	62.1852
771.606	62.4559	63.176
771.763	63.2854	65.1123
771.921	62.2021	63.2166
772.078	62.2938	64.6074
772.235	62.4049	63.7185
772.393	61.7575	64.0539
772.55	63.0237	64.8221
772.707	60.6607	60.0122
772.864	63.2228	64.4654
773.021	61.8321	62.6741
773.178	60.5907	63.5749
773.335	63.5251	66.3958
773.492	63.0486	64.8936
773.649	61.4722	61.6435
773.806	64.6885	65.6679
773.963	62.1784	62.5832
774.12	61.7449	63.2792
774.277	62.4058	63.2081
774.434	62.9912	63.8277
774.591	64.6688	65.1664
774.748	61.7096	65.5037
774.905	61.6473	62.7332
775.061	63.2986	64.6132
775.218	64.3906	64.8531
775.375	63.0185	65.0401
775.532	62.2349	63.6062
775.688	62.4056	64.8229
775.845	63.1087	65.4932
776.002	62.1131	64.6567
776.158	64.309	63.6138
776.315	63.5429	65.4025
776.471	63.1184	65.488
776.628	62.278	65.386
776.784	63.8472	64.4931
776.941	64.41	65.0782
777.097	62.6555	63.7916
777.254	61.8602	65.3834
777.41	63.8077	64.8774
777.567	61.8822	63.6488
777.723	63.1489	64.6154
777.879	62.9634	65.0514
778.036	61.9863	63.798
778.192	0	0
778.348	0	0
778.505	0	0
778.661	0	0
778.817	0	0
778.973	0	0
779.129	0	0
779.285	0	0
779.442	0	0
779.598	0	0
779.754	0	0
779.91	0	0
780.066	0	0
780.222	0	0
780.378	0	0
780.533	0	0
780.689	0	0
780.845	0	0
781.001	0	0
781.157	0	0
781.313	0	0
781.468	0	0
781.624	0	0
781.78	0	0
781.936	0	0
782.091	0	0
782.247	0	0
782.403	0	0
782.558	0	0
782.714	0	0
782.869	0	0
783.025	0	0
783.18	0	0
783.336	0	0
783.491	0	0
783.647	0	0
783.802	0	0
783.957	0	0
784.113	0	0
784.268	0	0
784.423	0	0
784.578	0	0
784.734	0	0
784.889	0	0
785.044	0	0
785.199	0	0
785.354	0	0
785.51	0	0
785.665	0	0
785.82	0	0
785.975	0	0
786.13	0	0
786.285	0	0
786.44	0	0
786.595	0	0
786.75	0	0
786.905	0	0
787.059	0	0
787.214	0	0
787.369	0	0
787.524	0	0
787.679	0	0
787.833	0	0
787.988	0	0
788.143	0	0
788.297	0	0
788.452	0	0
788.607	0	0
788.761	0	0
788.916	0	0
789.07	0	0
789.225	0	0
789.379	0	0
789.534	0	0
789.688	0	0
789.843	0	0
789.997	0	0
790.151	0	0
790.306	0	0
790.46	0	0
790.614	0	0
790.769	0	0
790.923	0	0
791.077	0	0
791.231	0	0
791.385	0	0
791.54	0	0
791.694	0	0
791.848	0	0
792.002	0	0
792.156	0	0
792.31	0	0
792.464	0	0
792.618	0	0
792.772	0	0
792.926	0	0
793.08	0	0
793.233	0	0
793.387	0	0
793.541	0	0
793.695	0	0
793.849	0	0
794.002	0	0
794.156	0	0
794.31	0	0
794.463	0	0
794.617	0	0
794.771	0	0
794.924	0	0
795.078	0	0
795.231	0	0
795.385	0	0
795.538	0	0
795.692	0	0
795.845	0	0
795.999	0	0
796.152	0	0
796.305	0	0
796.459	0	0
796.612	0	0
796.765	0	0
796.919	0	0
797.072	0	0
797.225	0	0
797.378	0	0
797.531	0	0
797.685	0	0
797.838	0	0
797.991	0	0
798.144	0	0
798.297	0	0
798.45	0	0
798.603	0	0
798.756	0	0
798.909	0	0
799.062	0	0
799.214	0	0
799.367	0	0
799.52	0	0
799.673	0	0
799.826	0	0
799.979	0	0
800.131	0	0
800.284	0	0
800.437	0	0
800.589	0	0
800.742	0	0
800.895	0	0
801.047	0	0
801.2	0	0
801.352	0	0
801.505	0	0
801.657	0	0
801.81	0	0
801.962	0	0
802.115	0	0
802.267	0	0
802.419	0	0
802.572	0	0
802.724	0	0
802.876	0	0
803.028	0	0
803.181	0	0
803.333	0	0
803.485	0	0
803.637	0	0
803.789	0	0
803.941	0	0
804.094	0	0
804.246	0	0
804.398	0	0
804.55	0	0
804.702	0	0
804.854	0	0
805.005	0	0
805.157	0	0
805.309	0	0
805.461	0	0
805.613	0	0
805.765	0	0
805.917	0	0
806.068	0	0
806.22	0	0
806.372	0	0
806.523	0	0
806.675	0	0
806.827	0	0
806.978	0	0
807.13	0	0
807.281	0	0
807.433	0	0
807.584	0	0
807.736	0	0
807.887	0	0
808.039	0	0
808.19	0	0
808.342	0	0
808.493	0	0
808.644	0	0
808.796	0	0
808.947	0	0
809.098	0	0
809.249	0	0
